##TITLE= WG4 88 #2
##JCAMP-DX= 4.24
##DATA TYPE= UV/VIS SPECTRUM
##ORIGIN= Exported PE Spectrum Data File
##OWNER= Michael Matus
##DATE= 22/07/08
##TIME= 12:12:07.00
##DELTAX= -5.000000
##XUNITS= NANOMETERS
##YUNITS= TRANSMITTANCE
##XFACTOR= 1.00
##YFACTOR= 0.00000011920928955078
##FIRSTX= 1600.00
##LASTX= 250.00
##NPOINTS= 271
##FIRSTY= 89.572360
##MAXY= 0.917910
##MINY= 0.000030
##XYDATA= (X++(Y..Y))
  1600.000000   7513874   7514075   7514272   7513937   7513940  
  1575.000000   7513718   7514135   7514457   7514176   7514280  
  1550.000000   7514615   7514311   7514682   7514203   7514513  
  1525.000000   7514485   7514461   7514111   7514014   7513509  
  1500.000000   7513424   7513010   7513743   7513581   7513342  
  1475.000000   7513098   7512956   7512997   7512468   7511917  
  1450.000000   7511575   7511404   7510767   7510355   7509297  
  1425.000000   7508638   7508429   7509224   7509847   7509718  
  1400.000000   7510496   7510464   7511696   7512751   7513600  
  1375.000000   7513847   7513956   7513257   7513046   7513140  
  1350.000000   7513242   7513161   7512942   7513053   7512853  
  1325.000000   7512534   7512666   7513023   7512277   7512281  
  1300.000000   7512346   7512260   7512115   7512121   7511944  
  1275.000000   7511544   7511559   7511582   7511664   7512086  
  1250.000000   7511982   7511875   7511711   7511531   7511241  
  1225.000000   7511235   7511817   7511878   7511918   7511434  
  1200.000000   7510788   7510678   7511436   7511485   7510990  
  1175.000000   7510377   7510389   7510469   7510363   7510558  
  1150.000000   7510723   7510900   7511134   7510790   7510799  
  1125.000000   7511192   7511347   7510669   7510432   7510549  
  1100.000000   7510460   7510594   7511237   7511214   7510849  
  1075.000000   7510741   7510574   7510624   7510880   7511167  
  1050.000000   7510904   7510611   7510410   7510330   7510107  
  1025.000000   7510130   7510232   7510330   7510337   7509912  
  1000.000000   7509723   7510230   7510458   7509924   7509771  
   975.000000   7510049   7510107   7510191   7510502   7510619  
   950.000000   7510509   7510329   7510342   7510568   7510439  
   925.000000   7510692   7510998   7511096   7510581   7510201  
   900.000000   7510417   7510153   7510291   7510160   7510024  
   875.000000   7509917   7509728   7509568   7658377   7584585  
   850.000000   7699987   7598334   7438380   7575714   7507923  
   825.000000   7500179   7515617   7503158   7500031   7503007  
   800.000000   7509256   7504647   7513397   7509481   7505813  
   775.000000   7506390   7506922   7504185   7501600   7504117  
   750.000000   7498288   7503583   7501542   7504236   7506904  
   725.000000   7497214   7502677   7497976   7503365   7499737  
   700.000000   7496931   7495119   7500359   7498408   7495655  
   675.000000   7493041   7491644   7492373   7490031   7492898  
   650.000000   7487391   7488879   7488527   7486175   7485913  
   625.000000   7487936   7484127   7486050   7483891   7483902  
   600.000000   7481286   7481625   7482485   7484111   7481289  
   575.000000   7479696   7478752   7478485   7475541   7474038  
   550.000000   7474318   7472783   7471393   7470579   7471478  
   525.000000   7470386   7468445   7471335   7469895   7470791  
   500.000000   7470707   7469073   7469305   7463468   7463546  
   475.000000   7461550   7463121   7462639   7460556   7460094  
   450.000000   7462401   7453843   7453469   7453032   7448338  
   425.000000   7448479   7447060   7442610   7439763   7435705  
   400.000000   7431451   7424041   7412566   7391546   7372952  
   375.000000   7360188   7347351   7306668   7248355   7181192  
   350.000000   7077813   6916186   6656657   6240831   5534294  
   325.000000   4414504   2827564   1147201   181584   04282  
   300.000000   00423   00363   00311   00484   00354  
   275.000000   00371   00285   00268   00285   00363  
   250.000000   00250  
##END= 
