PE UV       SUBTECH     SPECTRUM    ASCII       PEDS        4.00        
   -1
Sample16.SampleY.ASC
22/07/11
06:54:47.00
22/07/11
06:54:47.00
Michael Matus
NG11 #68, Schott 50mm x 50mm, 2mm, Some very long description to test the 80 character restriction of JCAMP-DX specification - 1234567890123456789012345678901234567890
250.000000
1
Lambda 1050+
1060L2011032
PerkinElmer UV WinLab 7.1.0.68 / 2.02.11 Lambda 900 UV/VIS/NIR, May 23 2018 11:23:04

0
0
3350/servo 1800.8/servo 860.8/1
0
0
UV/VIS
1
1
1
CommonBeamDepol,RBeamAtt,SBeamAtt,uv/vis/nir detector, TDS WB InGaAs Detector
0
0
0
0
Program
Program
3350/servo 1800.8/servo 860.8/1
3350/0.2 1800.8/0.2 860.8/0.2
3350/0.2 1800.8/0.2 860.8/0.2
0
3350/1.00 1800.8/5.00
 
 
 
0
 
860.8
319.2
1800.8 860.8
Front
25
on
S:100 R:100
 
0
0
0
 
0
 
 
 
0
 
 
0
0
0
0
0
 
 
 
 
0
0


0
0
#HDR
-1
-1
#GR
nm
%T
1.0
0.0
2000.000000
-1.000000
1751
8
56.905109
-0.001860
#DATA
2000.000000	56.074212
1999.000000	56.253906
1998.000000	56.404050
1997.000000	56.489352
1996.000000	56.157209
1995.000000	55.970774
1994.000000	56.197074
1993.000000	56.361493
1992.000000	56.408691
1991.000000	55.984347
1990.000000	55.710486
1989.000000	55.893595
1988.000000	55.965684
1987.000000	56.238287
1986.000000	56.335019
1985.000000	55.836451
1984.000000	56.037660
1983.000000	56.232196
1982.000000	55.723162
1981.000000	55.897668
1980.000000	56.148071
1979.000000	56.159625
1978.000000	55.680098
1977.000000	55.839048
1976.000000	56.076995
1975.000000	56.127361
1974.000000	55.643567
1973.000000	55.745017
1972.000000	55.933088
1971.000000	55.993039
1970.000000	55.940719
1969.000000	55.442860
1968.000000	55.529037
1967.000000	55.612811
1966.000000	55.767409
1965.000000	55.779549
1964.000000	55.758086
1963.000000	55.717763
1962.000000	55.629533
1961.000000	55.541006
1960.000000	55.477582
1959.000000	55.427648
1958.000000	55.367201
1957.000000	55.254512
1956.000000	55.052689
1955.000000	54.895294
1954.000000	54.890799
1953.000000	55.179556
1952.000000	55.326181
1951.000000	55.052750
1950.000000	54.892953
1949.000000	54.762547
1948.000000	54.744050
1947.000000	55.016473
1946.000000	55.048266
1945.000000	54.684912
1944.000000	54.910442
1943.000000	55.007348
1942.000000	54.761739
1941.000000	54.798618
1940.000000	54.354056
1939.000000	54.312187
1938.000000	54.479650
1937.000000	54.744615
1936.000000	54.807619
1935.000000	54.758365
1934.000000	54.493235
1933.000000	54.534657
1932.000000	54.349956
1931.000000	54.536911
1930.000000	54.557967
1929.000000	54.397754
1928.000000	54.208264
1927.000000	54.065187
1926.000000	54.073884
1925.000000	54.444949
1924.000000	55.031524
1923.000000	55.066774
1922.000000	54.650178
1921.000000	54.306295
1920.000000	54.131118
1919.000000	54.277472
1918.000000	54.529350
1917.000000	54.967484
1916.000000	55.228517
1915.000000	54.960967
1914.000000	54.529145
1913.000000	54.080139
1912.000000	53.774291
1911.000000	53.894283
1910.000000	54.753514
1909.000000	55.359343
1908.000000	55.146458
1907.000000	54.500669
1906.000000	54.157398
1905.000000	53.783944
1904.000000	53.519689
1903.000000	54.134809
1902.000000	54.735802
1901.000000	54.722546
1900.000000	54.686114
1899.000000	54.407532
1898.000000	54.242541
1897.000000	54.599812
1896.000000	54.901348
1895.000000	54.997925
1894.000000	54.952282
1893.000000	54.680192
1892.000000	54.138513
1891.000000	53.619724
1890.000000	53.493950
1889.000000	53.748213
1888.000000	54.401551
1887.000000	54.958899
1886.000000	54.739940
1885.000000	54.110659
1884.000000	54.013151
1883.000000	54.078135
1882.000000	53.970269
1881.000000	54.062019
1880.000000	54.305536
1879.000000	54.496960
1878.000000	54.241285
1877.000000	53.787444
1876.000000	53.324403
1875.000000	52.950626
1874.000000	53.053651
1873.000000	53.050480
1872.000000	53.005656
1871.000000	53.381233
1870.000000	53.898105
1869.000000	53.917845
1868.000000	54.144831
1867.000000	54.826578
1866.000000	55.167705
1865.000000	55.284302
1864.000000	55.091292
1863.000000	54.711468
1862.000000	54.301256
1861.000000	53.459218
1860.000000	52.931928
1859.000000	52.965074
1858.000000	53.141332
1857.000000	53.562801
1856.000000	53.755042
1855.000000	53.712496
1854.000000	53.872343
1853.000000	54.090423
1852.000000	53.766316
1851.000000	53.941527
1850.000000	54.058729
1849.000000	53.583650
1848.000000	53.070315
1847.000000	52.438620
1846.000000	52.584428
1845.000000	53.435199
1844.000000	54.689039
1843.000000	55.145983
1842.000000	54.479733
1841.000000	53.219569
1840.000000	51.840648
1839.000000	52.136827
1838.000000	52.897928
1837.000000	53.592659
1836.000000	53.757547
1835.000000	53.879964
1834.000000	53.879513
1833.000000	54.057371
1832.000000	54.392872
1831.000000	53.988290
1830.000000	53.345432
1829.000000	52.738749
1828.000000	52.736819
1827.000000	53.269163
1826.000000	53.584418
1825.000000	54.018219
1824.000000	53.885673
1823.000000	54.056203
1822.000000	53.886456
1821.000000	52.935000
1820.000000	52.500596
1819.000000	52.162722
1818.000000	53.226224
1817.000000	53.951142
1816.000000	54.116748
1815.000000	53.675547
1814.000000	53.311626
1813.000000	53.160401
1812.000000	53.461286
1811.000000	53.172997
1810.000000	53.324981
1809.000000	53.035497
1808.000000	53.467730
1807.000000	53.337782
1806.000000	53.022486
1805.000000	53.216493
1804.000000	53.316484
1803.000000	53.581281
1802.000000	53.259550
1801.000000	52.896515
1800.000000	54.351199
1799.000000	54.342651
1798.000000	54.332234
1797.000000	54.320695
1796.000000	54.310441
1795.000000	54.304681
1794.000000	54.295349
1793.000000	54.284957
1792.000000	54.272482
1791.000000	54.264104
1790.000000	54.252650
1789.000000	54.243637
1788.000000	54.242545
1787.000000	54.233481
1786.000000	54.223808
1785.000000	54.211036
1784.000000	54.205652
1783.000000	54.195541
1782.000000	54.186821
1781.000000	54.176700
1780.000000	54.175068
1779.000000	54.161258
1778.000000	54.153210
1777.000000	54.144611
1776.000000	54.138501
1775.000000	54.134168
1774.000000	54.125024
1773.000000	54.112628
1772.000000	54.100439
1771.000000	54.097133
1770.000000	54.088487
1769.000000	54.080956
1768.000000	54.073388
1767.000000	54.065262
1766.000000	54.059904
1765.000000	54.053791
1764.000000	54.049354
1763.000000	54.039553
1762.000000	54.031842
1761.000000	54.026390
1760.000000	54.016185
1759.000000	54.012249
1758.000000	54.006867
1757.000000	54.001582
1756.000000	53.994720
1755.000000	53.987107
1754.000000	53.979902
1753.000000	53.969266
1752.000000	53.965238
1751.000000	53.957619
1750.000000	53.952412
1749.000000	53.945868
1748.000000	53.937334
1747.000000	53.929660
1746.000000	53.925879
1745.000000	53.922282
1744.000000	53.914031
1743.000000	53.907873
1742.000000	53.903228
1741.000000	53.897553
1740.000000	53.894570
1739.000000	53.890022
1738.000000	53.885663
1737.000000	53.880828
1736.000000	53.873665
1735.000000	53.866912
1734.000000	53.861140
1733.000000	53.858655
1732.000000	53.853420
1731.000000	53.849878
1730.000000	53.847309
1729.000000	53.839153
1728.000000	53.833156
1727.000000	53.828285
1726.000000	53.824026
1725.000000	53.819435
1724.000000	53.814489
1723.000000	53.809936
1722.000000	53.804794
1721.000000	53.800400
1720.000000	53.795462
1719.000000	53.791301
1718.000000	53.788242
1717.000000	53.783510
1716.000000	53.781230
1715.000000	53.777813
1714.000000	53.771255
1713.000000	53.766047
1712.000000	53.763880
1711.000000	53.761696
1710.000000	53.756104
1709.000000	53.751878
1708.000000	53.747041
1707.000000	53.741638
1706.000000	53.737035
1705.000000	53.732125
1704.000000	53.727878
1703.000000	53.724812
1702.000000	53.724431
1701.000000	53.722101
1700.000000	53.717707
1699.000000	53.712564
1698.000000	53.708784
1697.000000	53.704371
1696.000000	53.698485
1695.000000	53.695374
1694.000000	53.692196
1693.000000	53.688295
1692.000000	53.682411
1691.000000	53.675729
1690.000000	53.674499
1689.000000	53.672656
1688.000000	53.668556
1687.000000	53.664521
1686.000000	53.660262
1685.000000	53.654892
1684.000000	53.649140
1683.000000	53.644305
1682.000000	53.640931
1681.000000	53.638798
1680.000000	53.635127
1679.000000	53.632888
1678.000000	53.632479
1677.000000	53.627238
1676.000000	53.621413
1675.000000	53.615155
1674.000000	53.610368
1673.000000	53.607674
1672.000000	53.604304
1671.000000	53.600734
1670.000000	53.599082
1669.000000	53.598547
1668.000000	53.594932
1667.000000	53.590180
1666.000000	53.586722
1665.000000	53.580331
1664.000000	53.575545
1663.000000	53.570209
1662.000000	53.566058
1661.000000	53.561353
1660.000000	53.557948
1659.000000	53.553733
1658.000000	53.547915
1657.000000	53.544503
1656.000000	53.537963
1655.000000	53.532887
1654.000000	53.527478
1653.000000	53.522334
1652.000000	53.518037
1651.000000	53.510345
1650.000000	53.506483
1649.000000	53.501958
1648.000000	53.496644
1647.000000	53.491287
1646.000000	53.485020
1645.000000	53.479655
1644.000000	53.472878
1643.000000	53.467209
1642.000000	53.463372
1641.000000	53.456092
1640.000000	53.450914
1639.000000	53.445455
1638.000000	53.440146
1637.000000	53.433897
1636.000000	53.427412
1635.000000	53.421174
1634.000000	53.413892
1633.000000	53.407129
1632.000000	53.400774
1631.000000	53.392184
1630.000000	53.388036
1629.000000	53.381940
1628.000000	53.375517
1627.000000	53.366611
1626.000000	53.361749
1625.000000	53.354117
1624.000000	53.341500
1623.000000	53.334921
1622.000000	53.328127
1621.000000	53.320791
1620.000000	53.310894
1619.000000	53.304440
1618.000000	53.295249
1617.000000	53.284982
1616.000000	53.274826
1615.000000	53.264071
1614.000000	53.258386
1613.000000	53.247742
1612.000000	53.238205
1611.000000	53.228112
1610.000000	53.218396
1609.000000	53.209910
1608.000000	53.198835
1607.000000	53.189149
1606.000000	53.176713
1605.000000	53.163509
1604.000000	53.153683
1603.000000	53.141317
1602.000000	53.131058
1601.000000	53.118896
1600.000000	53.105622
1599.000000	53.092530
1598.000000	53.083130
1597.000000	53.072332
1596.000000	53.060107
1595.000000	53.049806
1594.000000	53.037580
1593.000000	53.025556
1592.000000	53.011674
1591.000000	53.001034
1590.000000	52.979833
1589.000000	52.966362
1588.000000	52.953081
1587.000000	52.938440
1586.000000	52.924052
1585.000000	52.909475
1584.000000	52.894241
1583.000000	52.877418
1582.000000	52.860869
1581.000000	52.844940
1580.000000	52.826260
1579.000000	52.810325
1578.000000	52.793875
1577.000000	52.780286
1576.000000	52.761961
1575.000000	52.744140
1574.000000	52.724817
1573.000000	52.709293
1572.000000	52.691196
1571.000000	52.673089
1570.000000	52.654148
1569.000000	52.639351
1568.000000	52.615774
1567.000000	52.599010
1566.000000	52.581720
1565.000000	52.563554
1564.000000	52.544256
1563.000000	52.523199
1562.000000	52.501674
1561.000000	52.479419
1560.000000	52.455966
1559.000000	52.435715
1558.000000	52.415829
1557.000000	52.392578
1556.000000	52.370208
1555.000000	52.345991
1554.000000	52.323554
1553.000000	52.300263
1552.000000	52.278666
1551.000000	52.255813
1550.000000	52.232012
1549.000000	52.207510
1548.000000	52.184504
1547.000000	52.164016
1546.000000	52.139300
1545.000000	52.111542
1544.000000	52.086854
1543.000000	52.061415
1542.000000	52.035340
1541.000000	52.009194
1540.000000	51.983045
1539.000000	51.953919
1538.000000	51.926914
1537.000000	51.904470
1536.000000	51.875136
1535.000000	51.848275
1534.000000	51.816813
1533.000000	51.783516
1532.000000	51.752949
1531.000000	51.721355
1530.000000	51.691593
1529.000000	51.663308
1528.000000	51.635898
1527.000000	51.604622
1526.000000	51.572375
1525.000000	51.541208
1524.000000	51.510076
1523.000000	51.479671
1522.000000	51.449296
1521.000000	51.415409
1520.000000	51.381754
1519.000000	51.350912
1518.000000	51.320636
1517.000000	51.286835
1516.000000	51.252327
1515.000000	51.215981
1514.000000	51.182041
1513.000000	51.147010
1512.000000	51.111009
1511.000000	51.075269
1510.000000	51.037927
1509.000000	51.001492
1508.000000	50.963503
1507.000000	50.926003
1506.000000	50.889470
1505.000000	50.852135
1504.000000	50.814318
1503.000000	50.773714
1502.000000	50.734719
1501.000000	50.695074
1500.000000	50.655717
1499.000000	50.618122
1498.000000	50.577830
1497.000000	50.537274
1496.000000	50.495200
1495.000000	50.452890
1494.000000	50.409886
1493.000000	50.367913
1492.000000	50.327922
1491.000000	50.285965
1490.000000	50.243868
1489.000000	50.200938
1488.000000	50.157421
1487.000000	50.113958
1486.000000	50.069958
1485.000000	50.026545
1484.000000	49.983379
1483.000000	49.939531
1482.000000	49.892755
1481.000000	49.845839
1480.000000	49.799754
1479.000000	49.753232
1478.000000	49.707052
1477.000000	49.659361
1476.000000	49.611672
1475.000000	49.563886
1474.000000	49.514542
1473.000000	49.466711
1472.000000	49.419612
1471.000000	49.370664
1470.000000	49.321130
1469.000000	49.271882
1468.000000	49.222438
1467.000000	49.172619
1466.000000	49.121137
1465.000000	49.069451
1464.000000	49.018562
1463.000000	48.965814
1462.000000	48.911313
1461.000000	48.856861
1460.000000	48.801305
1459.000000	48.746738
1458.000000	48.693669
1457.000000	48.639021
1456.000000	48.586132
1455.000000	48.533349
1454.000000	48.477837
1453.000000	48.423103
1452.000000	48.369254
1451.000000	48.313999
1450.000000	48.257240
1449.000000	48.200936
1448.000000	48.142673
1447.000000	48.084317
1446.000000	48.027518
1445.000000	47.970091
1444.000000	47.910288
1443.000000	47.851684
1442.000000	47.791710
1441.000000	47.730494
1440.000000	47.669443
1439.000000	47.608455
1438.000000	47.549604
1437.000000	47.491765
1436.000000	47.429420
1435.000000	47.366894
1434.000000	47.306262
1433.000000	47.244269
1432.000000	47.181456
1431.000000	47.119041
1430.000000	47.055916
1429.000000	46.991485
1428.000000	46.925454
1427.000000	46.861869
1426.000000	46.798355
1425.000000	46.735018
1424.000000	46.669675
1423.000000	46.605101
1422.000000	46.543412
1421.000000	46.476323
1420.000000	46.408806
1419.000000	46.344127
1418.000000	46.281081
1417.000000	46.218654
1416.000000	46.155987
1415.000000	46.097262
1414.000000	46.030949
1413.000000	45.968136
1412.000000	45.906219
1411.000000	45.845522
1410.000000	45.788437
1409.000000	45.736292
1408.000000	45.675337
1407.000000	45.618041
1406.000000	45.562286
1405.000000	45.510468
1404.000000	45.460868
1403.000000	45.405238
1402.000000	45.354782
1401.000000	45.307652
1400.000000	45.261491
1399.000000	45.216254
1398.000000	45.171212
1397.000000	45.128793
1396.000000	45.087408
1395.000000	45.043452
1394.000000	45.001909
1393.000000	44.957550
1392.000000	44.913611
1391.000000	44.872677
1390.000000	44.830778
1389.000000	44.787916
1388.000000	44.745762
1387.000000	44.705273
1386.000000	44.663706
1385.000000	44.619006
1384.000000	44.570684
1383.000000	44.520090
1382.000000	44.472358
1381.000000	44.411936
1380.000000	44.354888
1379.000000	44.298862
1378.000000	44.241640
1377.000000	44.186562
1376.000000	44.128305
1375.000000	44.066551
1374.000000	44.011875
1373.000000	43.959297
1372.000000	43.906411
1371.000000	43.846084
1370.000000	43.787912
1369.000000	43.727221
1368.000000	43.667223
1367.000000	43.606593
1366.000000	43.546028
1365.000000	43.485215
1364.000000	43.420787
1363.000000	43.356858
1362.000000	43.293240
1361.000000	43.230979
1360.000000	43.167633
1359.000000	43.101898
1358.000000	43.036112
1357.000000	42.971209
1356.000000	42.904687
1355.000000	42.841310
1354.000000	42.780266
1353.000000	42.717288
1352.000000	42.656963
1351.000000	42.595698
1350.000000	42.531120
1349.000000	42.472783
1348.000000	42.410406
1347.000000	42.349551
1346.000000	42.286531
1345.000000	42.225439
1344.000000	42.161530
1343.000000	42.102383
1342.000000	42.039710
1341.000000	41.976355
1340.000000	41.919203
1339.000000	41.857392
1338.000000	41.797402
1337.000000	41.735215
1336.000000	41.675428
1335.000000	41.612564
1334.000000	41.552283
1333.000000	41.491445
1332.000000	41.429506
1331.000000	41.371176
1330.000000	41.311840
1329.000000	41.253024
1328.000000	41.192274
1327.000000	41.131871
1326.000000	41.072339
1325.000000	41.014659
1324.000000	40.956055
1323.000000	40.898054
1322.000000	40.839782
1321.000000	40.780230
1320.000000	40.720162
1319.000000	40.660472
1318.000000	40.601223
1317.000000	40.543018
1316.000000	40.485106
1315.000000	40.428823
1314.000000	40.370759
1313.000000	40.313365
1312.000000	40.254853
1311.000000	40.199163
1310.000000	40.142052
1309.000000	40.085760
1308.000000	40.029315
1307.000000	39.971484
1306.000000	39.913322
1305.000000	39.854868
1304.000000	39.796829
1303.000000	39.739818
1302.000000	39.682263
1301.000000	39.626623
1300.000000	39.570461
1299.000000	39.514982
1298.000000	39.457855
1297.000000	39.404118
1296.000000	39.350667
1295.000000	39.295747
1294.000000	39.239220
1293.000000	39.184819
1292.000000	39.130422
1291.000000	39.076674
1290.000000	39.024609
1289.000000	38.970350
1288.000000	38.916246
1287.000000	38.863899
1286.000000	38.811942
1285.000000	38.760152
1284.000000	38.708850
1283.000000	38.658016
1282.000000	38.606919
1281.000000	38.556313
1280.000000	38.505513
1279.000000	38.454572
1278.000000	38.403985
1277.000000	38.352341
1276.000000	38.301268
1275.000000	38.250722
1274.000000	38.200508
1273.000000	38.150411
1272.000000	38.102387
1271.000000	38.054365
1270.000000	38.005184
1269.000000	37.955917
1268.000000	37.906737
1267.000000	37.857762
1266.000000	37.810789
1265.000000	37.763304
1264.000000	37.712811
1263.000000	37.664273
1262.000000	37.617872
1261.000000	37.569616
1260.000000	37.522373
1259.000000	37.476348
1258.000000	37.430626
1257.000000	37.385792
1256.000000	37.340784
1255.000000	37.295682
1254.000000	37.251190
1253.000000	37.207035
1252.000000	37.164144
1251.000000	37.121261
1250.000000	37.076529
1249.000000	37.033098
1248.000000	36.991530
1247.000000	36.948769
1246.000000	36.907125
1245.000000	36.866226
1244.000000	36.824717
1243.000000	36.782974
1242.000000	36.741766
1241.000000	36.701698
1240.000000	36.661793
1239.000000	36.624047
1238.000000	36.585801
1237.000000	36.546397
1236.000000	36.507943
1235.000000	36.467734
1234.000000	36.427813
1233.000000	36.389442
1232.000000	36.351638
1231.000000	36.314782
1230.000000	36.278236
1229.000000	36.241227
1228.000000	36.204404
1227.000000	36.167236
1226.000000	36.130528
1225.000000	36.094210
1224.000000	36.058209
1223.000000	36.022996
1222.000000	35.986827
1221.000000	35.952646
1220.000000	35.919282
1219.000000	35.885064
1218.000000	35.850300
1217.000000	35.815843
1216.000000	35.782131
1215.000000	35.749045
1214.000000	35.716083
1213.000000	35.684831
1212.000000	35.653168
1211.000000	35.619994
1210.000000	35.588119
1209.000000	35.557974
1208.000000	35.527958
1207.000000	35.497998
1206.000000	35.466816
1205.000000	35.435555
1204.000000	35.407416
1203.000000	35.379098
1202.000000	35.349104
1201.000000	35.319750
1200.000000	35.291565
1199.000000	35.264419
1198.000000	35.236986
1197.000000	35.210174
1196.000000	35.182412
1195.000000	35.156133
1194.000000	35.130017
1193.000000	35.104022
1192.000000	35.076525
1191.000000	35.051507
1190.000000	35.025574
1189.000000	35.002125
1188.000000	34.977186
1187.000000	34.952369
1186.000000	34.927381
1185.000000	34.904753
1184.000000	34.880624
1183.000000	34.856185
1182.000000	34.832096
1181.000000	34.810193
1180.000000	34.787446
1179.000000	34.766537
1178.000000	34.744025
1177.000000	34.723289
1176.000000	34.699598
1175.000000	34.678189
1174.000000	34.657947
1173.000000	34.638082
1172.000000	34.620414
1171.000000	34.600614
1170.000000	34.580132
1169.000000	34.560053
1168.000000	34.541619
1167.000000	34.524551
1166.000000	34.506496
1165.000000	34.488910
1164.000000	34.471222
1163.000000	34.453431
1162.000000	34.435498
1161.000000	34.418669
1160.000000	34.402361
1159.000000	34.387236
1158.000000	34.372366
1157.000000	34.356825
1156.000000	34.342403
1155.000000	34.328076
1154.000000	34.311013
1153.000000	34.298770
1152.000000	34.284560
1151.000000	34.271867
1150.000000	34.259212
1149.000000	34.245788
1148.000000	34.234602
1147.000000	34.222801
1146.000000	34.208906
1145.000000	34.195691
1144.000000	34.186960
1143.000000	34.174532
1142.000000	34.162960
1141.000000	34.152390
1140.000000	34.143626
1139.000000	34.134158
1138.000000	34.124401
1137.000000	34.116684
1136.000000	34.110278
1135.000000	34.100212
1134.000000	34.091481
1133.000000	34.084478
1132.000000	34.076553
1131.000000	34.069118
1130.000000	34.061386
1129.000000	34.054338
1128.000000	34.048483
1127.000000	34.043633
1126.000000	34.038232
1125.000000	34.032231
1124.000000	34.027799
1123.000000	34.023516
1122.000000	34.018964
1121.000000	34.014833
1120.000000	34.011483
1119.000000	34.008584
1118.000000	34.006372
1117.000000	34.004295
1116.000000	34.000886
1115.000000	33.998889
1114.000000	33.996618
1113.000000	33.997442
1112.000000	33.996148
1111.000000	33.993742
1110.000000	33.992850
1109.000000	33.993877
1108.000000	33.994242
1107.000000	33.995077
1106.000000	33.996589
1105.000000	33.998514
1104.000000	33.999539
1103.000000	33.998504
1102.000000	34.004107
1101.000000	34.006740
1100.000000	34.007552
1099.000000	34.011667
1098.000000	34.016288
1097.000000	34.018791
1096.000000	34.023297
1095.000000	34.026983
1094.000000	34.030907
1093.000000	34.036779
1092.000000	34.041683
1091.000000	34.048608
1090.000000	34.055489
1089.000000	34.063392
1088.000000	34.069230
1087.000000	34.075543
1086.000000	34.085632
1085.000000	34.092545
1084.000000	34.099859
1083.000000	34.107807
1082.000000	34.115781
1081.000000	34.126149
1080.000000	34.136573
1079.000000	34.146482
1078.000000	34.157550
1077.000000	34.168546
1076.000000	34.178003
1075.000000	34.186791
1074.000000	34.200037
1073.000000	34.210768
1072.000000	34.223811
1071.000000	34.236989
1070.000000	34.250783
1069.000000	34.265239
1068.000000	34.278454
1067.000000	34.292009
1066.000000	34.306645
1065.000000	34.319837
1064.000000	34.333858
1063.000000	34.352911
1062.000000	34.367678
1061.000000	34.383661
1060.000000	34.399311
1059.000000	34.415369
1058.000000	34.434197
1057.000000	34.451979
1056.000000	34.470133
1055.000000	34.488409
1054.000000	34.507049
1053.000000	34.525311
1052.000000	34.544674
1051.000000	34.564129
1050.000000	34.582419
1049.000000	34.601859
1048.000000	34.624307
1047.000000	34.645828
1046.000000	34.666939
1045.000000	34.689536
1044.000000	34.710820
1043.000000	34.730992
1042.000000	34.754459
1041.000000	34.776790
1040.000000	34.799856
1039.000000	34.824442
1038.000000	34.848565
1037.000000	34.873075
1036.000000	34.898351
1035.000000	34.924465
1034.000000	34.949473
1033.000000	34.973425
1032.000000	34.998836
1031.000000	35.026832
1030.000000	35.053325
1029.000000	35.080205
1028.000000	35.108321
1027.000000	35.136928
1026.000000	35.165452
1025.000000	35.194864
1024.000000	35.224004
1023.000000	35.253171
1022.000000	35.283253
1021.000000	35.314437
1020.000000	35.345233
1019.000000	35.375122
1018.000000	35.406435
1017.000000	35.438162
1016.000000	35.470686
1015.000000	35.501613
1014.000000	35.534849
1013.000000	35.570108
1012.000000	35.604054
1011.000000	35.637978
1010.000000	35.671570
1009.000000	35.704899
1008.000000	35.739614
1007.000000	35.774485
1006.000000	35.809908
1005.000000	35.845119
1004.000000	35.881178
1003.000000	35.917081
1002.000000	35.954801
1001.000000	35.992756
1000.000000	36.031979
999.000000	36.069266
998.000000	36.105275
997.000000	36.144666
996.000000	36.184270
995.000000	36.222850
994.000000	36.262663
993.000000	36.302599
992.000000	36.343124
991.000000	36.384310
990.000000	36.425683
989.000000	36.469540
988.000000	36.512359
987.000000	36.554180
986.000000	36.598189
985.000000	36.641637
984.000000	36.688604
983.000000	36.735614
982.000000	36.777563
981.000000	36.820134
980.000000	36.866601
979.000000	36.912117
978.000000	36.957658
977.000000	37.003143
976.000000	37.050327
975.000000	37.097075
974.000000	37.144709
973.000000	37.193466
972.000000	37.241726
971.000000	37.287557
970.000000	37.337396
969.000000	37.388494
968.000000	37.435258
967.000000	37.480912
966.000000	37.535372
965.000000	37.586434
964.000000	37.636184
963.000000	37.689311
962.000000	37.739457
961.000000	37.793934
960.000000	37.847192
959.000000	37.899607
958.000000	37.953312
957.000000	38.006211
956.000000	38.056168
955.000000	38.113116
954.000000	38.169904
953.000000	38.226537
952.000000	38.282885
951.000000	38.339508
950.000000	38.398178
949.000000	38.456492
948.000000	38.516487
947.000000	38.574113
946.000000	38.630606
945.000000	38.684888
944.000000	38.747986
943.000000	38.807523
942.000000	38.867352
941.000000	38.930364
940.000000	38.992264
939.000000	39.051361
938.000000	39.112345
937.000000	39.168639
936.000000	39.236565
935.000000	39.298487
934.000000	39.356765
933.000000	39.421170
932.000000	39.483486
931.000000	39.545391
930.000000	39.609102
929.000000	39.671269
928.000000	39.736207
927.000000	39.798827
926.000000	39.863474
925.000000	39.928554
924.000000	39.994510
923.000000	40.060647
922.000000	40.124462
921.000000	40.191199
920.000000	40.258556
919.000000	40.324907
918.000000	40.391214
917.000000	40.454073
916.000000	40.523152
915.000000	40.591681
914.000000	40.658885
913.000000	40.729535
912.000000	40.798813
911.000000	40.870526
910.000000	40.939518
909.000000	41.013489
908.000000	41.084134
907.000000	41.152609
906.000000	41.223709
905.000000	41.296569
904.000000	41.369690
903.000000	41.439528
902.000000	41.515112
901.000000	41.589565
900.000000	41.665477
899.000000	41.737628
898.000000	41.811820
897.000000	41.886389
896.000000	41.963774
895.000000	42.039907
894.000000	42.112887
893.000000	42.186611
892.000000	42.262784
891.000000	42.335232
890.000000	42.412605
889.000000	42.488100
888.000000	42.566527
887.000000	42.643417
886.000000	42.722576
885.000000	42.798495
884.000000	42.876472
883.000000	42.953688
882.000000	43.033284
881.000000	43.112907
880.000000	43.191401
879.000000	43.269670
878.000000	43.348940
877.000000	43.428234
876.000000	43.509404
875.000000	43.590319
874.000000	43.671969
873.000000	43.754043
872.000000	43.836918
871.000000	43.920050
870.000000	44.004115
869.000000	44.087278
868.000000	44.169620
867.000000	44.254454
866.000000	44.339587
865.000000	44.426561
864.000000	44.511478
863.000000	44.597392
862.000000	44.683726
861.000000	44.768742
860.000000	45.054917
859.000000	45.078386
858.000000	45.396847
857.000000	45.262018
856.000000	45.655766
855.000000	45.673178
854.000000	45.424934
853.000000	45.543095
852.000000	45.689183
851.000000	45.895371
850.000000	45.929354
849.000000	46.044586
848.000000	46.083068
847.000000	46.190821
846.000000	46.214085
845.000000	46.360051
844.000000	46.437054
843.000000	46.498708
842.000000	46.633550
841.000000	46.705765
840.000000	46.778768
839.000000	46.884536
838.000000	47.009440
837.000000	47.058544
836.000000	47.174555
835.000000	47.269141
834.000000	47.364687
833.000000	47.438917
832.000000	47.576210
831.000000	47.582048
830.000000	47.713207
829.000000	47.818951
828.000000	47.897495
827.000000	47.925186
826.000000	48.105465
825.000000	48.188437
824.000000	48.278738
823.000000	48.296849
822.000000	48.407595
821.000000	48.586711
820.000000	48.677028
819.000000	48.691781
818.000000	48.819277
817.000000	48.935138
816.000000	49.002476
815.000000	49.086069
814.000000	49.194568
813.000000	49.299175
812.000000	49.413784
811.000000	49.529593
810.000000	49.571335
809.000000	49.717115
808.000000	49.754914
807.000000	49.833477
806.000000	49.947570
805.000000	50.008243
804.000000	50.153413
803.000000	50.247691
802.000000	50.309342
801.000000	50.483719
800.000000	50.557394
799.000000	50.645525
798.000000	50.746264
797.000000	50.856640
796.000000	50.929561
795.000000	51.030649
794.000000	51.130979
793.000000	51.233048
792.000000	51.330481
791.000000	51.426707
790.000000	51.521909
789.000000	51.621083
788.000000	51.705894
787.000000	51.813384
786.000000	51.900729
785.000000	52.001565
784.000000	52.119630
783.000000	52.193800
782.000000	52.251492
781.000000	52.366566
780.000000	52.472475
779.000000	52.545551
778.000000	52.662688
777.000000	52.775168
776.000000	52.879061
775.000000	52.948759
774.000000	53.066407
773.000000	53.138505
772.000000	53.227513
771.000000	53.315536
770.000000	53.431317
769.000000	53.536953
768.000000	53.608976
767.000000	53.694229
766.000000	53.787347
765.000000	53.926206
764.000000	54.010908
763.000000	54.075174
762.000000	54.154032
761.000000	54.237690
760.000000	54.340910
759.000000	54.432441
758.000000	54.506036
757.000000	54.595171
756.000000	54.686374
755.000000	54.741090
754.000000	54.802351
753.000000	54.892263
752.000000	54.991956
751.000000	55.075889
750.000000	55.141365
749.000000	55.235200
748.000000	55.306608
747.000000	55.353284
746.000000	55.453855
745.000000	55.531692
744.000000	55.620213
743.000000	55.702749
742.000000	55.749979
741.000000	55.813159
740.000000	55.873489
739.000000	55.926501
738.000000	55.996701
737.000000	56.063596
736.000000	56.146022
735.000000	56.201052
734.000000	56.224751
733.000000	56.288920
732.000000	56.343918
731.000000	56.389746
730.000000	56.441274
729.000000	56.506721
728.000000	56.568491
727.000000	56.593173
726.000000	56.631883
725.000000	56.677557
724.000000	56.695613
723.000000	56.737069
722.000000	56.765795
721.000000	56.804940
720.000000	56.852756
719.000000	56.869595
718.000000	56.868502
717.000000	56.888937
716.000000	56.890398
715.000000	56.884124
714.000000	56.897739
713.000000	56.892298
712.000000	56.891137
711.000000	56.905109
710.000000	56.888766
709.000000	56.884778
708.000000	56.894069
707.000000	56.842237
706.000000	56.772257
705.000000	56.734774
704.000000	56.694782
703.000000	56.666855
702.000000	56.615116
701.000000	56.589185
700.000000	56.530770
699.000000	56.455244
698.000000	56.376798
697.000000	56.322746
696.000000	56.244767
695.000000	56.163535
694.000000	56.084827
693.000000	56.007404
692.000000	55.894234
691.000000	55.782364
690.000000	55.709002
689.000000	55.636450
688.000000	55.529490
687.000000	55.446633
686.000000	55.349917
685.000000	55.250166
684.000000	55.154679
683.000000	55.049738
682.000000	54.931450
681.000000	54.812615
680.000000	54.711839
679.000000	54.625292
678.000000	54.507378
677.000000	54.377101
676.000000	54.268627
675.000000	54.158375
674.000000	54.064648
673.000000	53.949903
672.000000	53.830009
671.000000	53.763535
670.000000	53.653176
669.000000	53.548517
668.000000	53.458754
667.000000	53.391058
666.000000	53.305682
665.000000	53.242359
664.000000	53.151211
663.000000	53.108033
662.000000	53.055477
661.000000	53.015156
660.000000	52.955151
659.000000	52.942787
658.000000	52.901283
657.000000	52.883782
656.000000	52.868236
655.000000	52.843250
654.000000	52.824882
653.000000	52.799489
652.000000	52.805400
651.000000	52.799208
650.000000	52.820494
649.000000	52.838087
648.000000	52.833662
647.000000	52.824159
646.000000	52.853365
645.000000	52.867830
644.000000	52.917550
643.000000	52.945982
642.000000	52.949061
641.000000	53.022054
640.000000	53.014215
639.000000	53.043295
638.000000	53.053779
637.000000	53.067231
636.000000	53.127562
635.000000	53.130745
634.000000	53.182195
633.000000	53.214887
632.000000	53.237479
631.000000	53.256157
630.000000	53.279872
629.000000	53.311212
628.000000	53.347064
627.000000	53.341154
626.000000	53.356876
625.000000	53.397076
624.000000	53.398978
623.000000	53.438209
622.000000	53.434716
621.000000	53.453169
620.000000	53.419665
619.000000	53.461068
618.000000	53.442093
617.000000	53.448395
616.000000	53.453436
615.000000	53.438993
614.000000	53.432761
613.000000	53.408592
612.000000	53.416668
611.000000	53.390414
610.000000	53.417637
609.000000	53.409479
608.000000	53.410712
607.000000	53.382436
606.000000	53.393580
605.000000	53.384609
604.000000	53.383571
603.000000	53.373932
602.000000	53.388385
601.000000	53.388214
600.000000	53.390455
599.000000	53.405488
598.000000	53.433702
597.000000	53.424170
596.000000	53.439093
595.000000	53.467357
594.000000	53.496095
593.000000	53.511284
592.000000	53.569692
591.000000	53.621024
590.000000	53.678501
589.000000	53.724516
588.000000	53.777256
587.000000	53.846169
586.000000	53.913987
585.000000	54.000370
584.000000	54.089201
583.000000	54.178309
582.000000	54.261765
581.000000	54.348918
580.000000	54.432596
579.000000	54.552648
578.000000	54.629806
577.000000	54.729314
576.000000	54.831759
575.000000	54.942213
574.000000	55.042505
573.000000	55.144722
572.000000	55.224037
571.000000	55.294471
570.000000	55.403186
569.000000	55.517348
568.000000	55.593824
567.000000	55.680307
566.000000	55.765091
565.000000	55.825447
564.000000	55.905127
563.000000	55.981447
562.000000	56.061970
561.000000	56.151424
560.000000	56.215794
559.000000	56.272442
558.000000	56.345840
557.000000	56.388674
556.000000	56.435640
555.000000	56.455469
554.000000	56.510455
553.000000	56.531693
552.000000	56.541776
551.000000	56.584428
550.000000	56.606556
549.000000	56.638694
548.000000	56.652405
547.000000	56.647361
546.000000	56.651942
545.000000	56.670734
544.000000	56.669452
543.000000	56.691805
542.000000	56.701316
541.000000	56.693033
540.000000	56.675482
539.000000	56.644085
538.000000	56.638333
537.000000	56.623869
536.000000	56.608375
535.000000	56.576562
534.000000	56.561705
533.000000	56.520951
532.000000	56.481303
531.000000	56.454561
530.000000	56.406501
529.000000	56.364650
528.000000	56.314897
527.000000	56.279351
526.000000	56.237896
525.000000	56.196345
524.000000	56.159575
523.000000	56.121802
522.000000	56.076089
521.000000	56.038645
520.000000	55.982322
519.000000	55.941156
518.000000	55.898966
517.000000	55.855533
516.000000	55.819872
515.000000	55.766467
514.000000	55.707594
513.000000	55.676382
512.000000	55.644612
511.000000	55.590623
510.000000	55.534314
509.000000	55.494964
508.000000	55.453861
507.000000	55.411076
506.000000	55.364902
505.000000	55.325751
504.000000	55.298356
503.000000	55.266791
502.000000	55.240825
501.000000	55.225700
500.000000	55.207246
499.000000	55.192755
498.000000	55.204403
497.000000	55.217369
496.000000	55.217479
495.000000	55.212447
494.000000	55.205531
493.000000	55.205588
492.000000	55.246032
491.000000	55.268119
490.000000	55.281371
489.000000	55.308750
488.000000	55.305607
487.000000	55.327957
486.000000	55.359858
485.000000	55.386506
484.000000	55.438006
483.000000	55.477681
482.000000	55.534647
481.000000	55.631951
480.000000	55.677802
479.000000	55.672808
478.000000	55.658580
477.000000	55.659630
476.000000	55.682471
475.000000	55.723622
474.000000	55.741964
473.000000	55.763740
472.000000	55.775744
471.000000	55.775726
470.000000	55.795677
469.000000	55.799298
468.000000	55.781799
467.000000	55.758674
466.000000	55.723282
465.000000	55.681346
464.000000	55.624476
463.000000	55.548036
462.000000	55.465021
461.000000	55.358492
460.000000	55.240630
459.000000	55.099063
458.000000	54.939022
457.000000	54.774222
456.000000	54.616270
455.000000	54.377251
454.000000	54.126770
453.000000	53.895385
452.000000	53.637231
451.000000	53.366782
450.000000	53.090371
449.000000	52.830265
448.000000	52.558905
447.000000	52.276716
446.000000	51.992162
445.000000	51.763839
444.000000	51.633632
443.000000	51.458660
442.000000	51.325967
441.000000	51.238493
440.000000	51.178450
439.000000	51.183420
438.000000	51.249709
437.000000	51.311626
436.000000	51.429150
435.000000	51.555579
434.000000	51.654947
433.000000	51.746113
432.000000	51.846983
431.000000	51.875116
430.000000	51.871867
429.000000	51.823908
428.000000	51.781872
427.000000	51.701568
426.000000	51.605909
425.000000	51.470639
424.000000	51.365028
423.000000	51.251027
422.000000	51.102944
421.000000	51.018779
420.000000	50.878245
419.000000	50.780330
418.000000	50.698874
417.000000	50.656506
416.000000	50.624796
415.000000	50.636174
414.000000	50.682675
413.000000	50.744049
412.000000	50.827950
411.000000	50.958222
410.000000	51.167950
409.000000	51.346234
408.000000	51.537350
407.000000	51.790564
406.000000	52.021006
405.000000	52.220471
404.000000	52.427939
403.000000	52.599881
402.000000	52.681926
401.000000	52.756575
400.000000	52.677838
399.000000	52.621307
398.000000	52.404891
397.000000	52.185268
396.000000	51.892253
395.000000	51.495562
394.000000	50.962621
393.000000	50.435496
392.000000	49.730130
391.000000	48.998817
390.000000	48.072861
389.000000	47.038200
388.000000	45.863106
387.000000	44.503830
386.000000	43.015982
385.000000	41.374960
384.000000	39.640548
383.000000	37.819660
382.000000	36.018196
381.000000	34.295763
380.000000	32.744416
379.000000	31.561240
378.000000	30.792809
377.000000	30.666470
376.000000	30.937425
375.000000	31.794189
374.000000	32.978006
373.000000	34.387205
372.000000	35.643088
371.000000	36.532210
370.000000	37.097753
369.000000	37.220296
368.000000	37.067118
367.000000	36.700899
366.000000	36.034440
365.000000	35.291307
364.000000	34.389399
363.000000	33.453825
362.000000	32.420071
361.000000	31.285260
360.000000	30.127962
359.000000	28.913675
358.000000	27.687765
357.000000	26.430653
356.000000	25.113766
355.000000	23.742445
354.000000	22.451889
353.000000	21.125587
352.000000	19.772543
351.000000	18.418073
350.000000	17.058986
349.000000	15.737653
348.000000	14.428609
347.000000	13.143095
346.000000	11.902499
345.000000	10.663420
344.000000	9.520911
343.000000	8.421287
342.000000	7.389012
341.000000	6.424697
340.000000	5.525351
339.000000	4.703659
338.000000	3.955556
337.000000	3.273562
336.000000	2.670033
335.000000	2.155397
334.000000	1.704316
333.000000	1.320109
332.000000	1.008777
331.000000	0.756246
330.000000	0.555140
329.000000	0.399168
328.000000	0.277961
327.000000	0.187893
326.000000	0.121673
325.000000	0.080175
324.000000	0.049556
323.000000	0.028818
322.000000	0.017355
321.000000	0.010124
320.000000	0.007532
319.000000	0.003097
318.000000	0.000620
317.000000	-0.001860
316.000000	0.000103
315.000000	-0.000930
314.000000	0.000413
313.000000	-0.000103
312.000000	0.000413
311.000000	0.000827
310.000000	0.000413
309.000000	0.000413
308.000000	-0.000620
307.000000	0.000620
306.000000	0.000413
305.000000	0.000000
304.000000	0.000826
303.000000	-0.000413
302.000000	0.001032
301.000000	0.001239
300.000000	0.001239
299.000000	-0.000929
298.000000	-0.000516
297.000000	0.000722
296.000000	0.000206
295.000000	-0.000103
294.000000	-0.000413
293.000000	0.000000
292.000000	0.000929
291.000000	0.000000
290.000000	-0.000516
289.000000	0.000310
288.000000	0.000000
287.000000	-0.000516
286.000000	-0.000310
285.000000	0.000826
284.000000	0.000516
283.000000	-0.000413
282.000000	0.000928
281.000000	0.000619
280.000000	0.000206
279.000000	-0.000928
278.000000	-0.000309
277.000000	0.000825
276.000000	-0.000206
275.000000	-0.000413
274.000000	-0.000103
273.000000	0.000206
272.000000	-0.000310
271.000000	0.000000
270.000000	0.001239
269.000000	0.000723
268.000000	-0.000103
267.000000	0.000103
266.000000	0.000310
265.000000	0.000103
264.000000	-0.000103
263.000000	-0.000413
262.000000	0.000310
261.000000	0.000620
260.000000	0.000517
259.000000	0.000620
258.000000	0.001033
257.000000	0.000517
256.000000	-0.000310
255.000000	-0.000620
254.000000	0.000000
253.000000	-0.000825
252.000000	-0.000516
251.000000	0.001547
250.000000	0.000516
