PE UV       SUBTECH     SPECTRUM    ASCII       PEDS        4.00        
   -1
Sample6.Sample.ASC
22/07/14
10:37:48.00
22/07/14
10:37:48.00
Michael Matus
blank 0,1 %
250.000000
1
Lambda 1050+
1060L2011032
PerkinElmer UV WinLab 7.1.0.68 / 2.02.11 Lambda 900 UV/VIS/NIR, May 23 2018 11:23:04

0
0
3350/servo 1800.8/servo 860.8/2
0
0
UV/VIS
1
1
1
CommonBeamDepol,RBeamAtt,SBeamAtt,uv/vis/nir detector, TDS WB InGaAs Detector
0
0
0
0
Program
Program
3350/servo 1800.8/servo 860.8/2
3350/0.2 1800.8/0.2 860.8/0.2
3350/0.2 1800.8/0.2 860.8/0.2
0
3350/1.00 1800.8/1.00
 
 
 
0
 
860.8
319.2
1800.8 860.8
Front
100
on
S:100 R:0.1
 
0
0
0
 
0
 
 
 
0
 
 
0
0
0
0
0
 
 
 
 
0
0


0
0
#HDR
-1
-1
#GR
nm
%T
1.0
0.0
900.000000
-1.000000
651
8
109.454038
94.582040
#DATA
900.000000	105.789461
899.000000	105.009798
898.000000	103.976011
897.000000	105.633005
896.000000	105.164400
895.000000	101.488680
894.000000	104.984957
893.000000	104.771250
892.000000	103.101983
891.000000	102.186403
890.000000	104.868768
889.000000	105.416202
888.000000	103.860808
887.000000	102.937515
886.000000	106.311118
885.000000	105.291413
884.000000	103.407244
883.000000	103.859223
882.000000	103.661831
881.000000	104.336801
880.000000	102.013617
879.000000	105.139528
878.000000	105.366399
877.000000	102.893357
876.000000	107.453741
875.000000	107.575443
874.000000	103.833206
873.000000	102.964915
872.000000	106.606969
871.000000	102.882289
870.000000	102.243291
869.000000	106.333285
868.000000	106.799278
867.000000	109.454038
866.000000	107.750862
865.000000	106.014817
864.000000	107.182690
863.000000	102.389565
862.000000	106.805400
861.000000	107.396179
860.000000	105.069702
859.000000	97.633805
858.000000	103.473310
857.000000	97.936560
856.000000	102.898485
855.000000	100.724958
854.000000	100.144190
853.000000	97.180180
852.000000	100.810952
851.000000	100.954362
850.000000	103.253351
849.000000	101.263380
848.000000	99.787522
847.000000	103.610568
846.000000	97.076677
845.000000	100.880945
844.000000	97.973875
843.000000	100.349408
842.000000	102.152148
841.000000	100.445700
840.000000	98.046207
839.000000	100.289738
838.000000	97.793560
837.000000	97.990380
836.000000	99.243538
835.000000	102.523475
834.000000	101.069882
833.000000	100.167497
832.000000	99.395653
831.000000	100.424915
830.000000	99.626069
829.000000	101.883664
828.000000	100.232972
827.000000	100.184870
826.000000	98.585084
825.000000	100.623466
824.000000	101.422962
823.000000	99.453262
822.000000	98.872337
821.000000	100.715444
820.000000	101.324323
819.000000	100.865952
818.000000	99.485496
817.000000	100.134284
816.000000	100.016779
815.000000	98.722012
814.000000	99.212306
813.000000	100.204664
812.000000	99.351360
811.000000	100.005507
810.000000	100.715881
809.000000	99.184526
808.000000	100.608638
807.000000	101.693743
806.000000	100.158700
805.000000	99.752713
804.000000	99.980294
803.000000	99.809858
802.000000	100.447946
801.000000	99.053564
800.000000	99.698792
799.000000	100.023632
798.000000	100.202337
797.000000	100.945288
796.000000	100.126817
795.000000	101.650576
794.000000	101.468596
793.000000	100.644182
792.000000	100.471975
791.000000	100.435227
790.000000	99.955983
789.000000	100.999302
788.000000	100.119534
787.000000	99.919118
786.000000	101.680590
785.000000	100.764521
784.000000	100.548611
783.000000	100.400362
782.000000	100.289255
781.000000	100.510213
780.000000	100.710646
779.000000	99.301141
778.000000	100.941658
777.000000	101.009566
776.000000	99.523361
775.000000	99.813518
774.000000	102.240001
773.000000	102.058399
772.000000	100.339768
771.000000	99.003828
770.000000	99.443109
769.000000	101.578109
768.000000	101.247611
767.000000	99.868253
766.000000	100.011194
765.000000	100.248033
764.000000	100.333678
763.000000	100.713647
762.000000	100.886558
761.000000	99.737771
760.000000	99.316869
759.000000	100.569178
758.000000	101.974251
757.000000	101.407519
756.000000	99.950042
755.000000	100.486873
754.000000	100.952153
753.000000	100.269573
752.000000	99.764738
751.000000	100.162300
750.000000	100.192842
749.000000	99.640633
748.000000	99.325710
747.000000	100.925117
746.000000	100.610041
745.000000	99.631861
744.000000	100.635980
743.000000	101.304463
742.000000	100.806012
741.000000	99.557272
740.000000	98.695781
739.000000	99.486827
738.000000	99.602018
737.000000	99.516456
736.000000	100.401598
735.000000	99.425402
734.000000	98.824299
733.000000	99.155386
732.000000	99.834630
731.000000	100.083297
730.000000	98.993004
729.000000	98.464000
728.000000	100.161430
727.000000	100.377413
726.000000	98.448101
725.000000	98.435023
724.000000	99.725150
723.000000	100.951158
722.000000	100.233654
721.000000	100.418184
720.000000	101.140188
719.000000	99.964577
718.000000	99.976260
717.000000	100.044087
716.000000	100.226536
715.000000	100.928618
714.000000	100.020572
713.000000	99.334732
712.000000	100.642740
711.000000	100.101604
710.000000	99.688912
709.000000	100.169602
708.000000	100.127767
707.000000	99.292474
706.000000	99.406369
705.000000	99.507047
704.000000	100.183429
703.000000	100.174049
702.000000	99.565302
701.000000	101.024749
700.000000	102.330003
699.000000	100.481413
698.000000	100.303976
697.000000	100.491358
696.000000	101.640210
695.000000	100.848591
694.000000	99.034361
693.000000	100.094640
692.000000	99.696960
691.000000	99.228978
690.000000	99.330401
689.000000	100.979839
688.000000	100.098428
687.000000	99.259347
686.000000	98.456124
685.000000	99.981862
684.000000	100.492830
683.000000	99.474494
682.000000	99.574894
681.000000	100.507500
680.000000	100.805089
679.000000	100.426094
678.000000	100.595392
677.000000	101.446161
676.000000	99.922272
675.000000	100.885943
674.000000	100.480265
673.000000	99.578009
672.000000	100.311885
671.000000	99.717916
670.000000	99.712910
669.000000	99.977521
668.000000	99.934833
667.000000	100.327971
666.000000	101.447312
665.000000	98.711755
664.000000	99.025133
663.000000	98.505602
662.000000	98.749312
661.000000	98.542468
660.000000	99.381342
659.000000	101.175850
658.000000	100.306088
657.000000	99.969010
656.000000	100.465086
655.000000	100.633451
654.000000	99.463180
653.000000	97.671659
652.000000	99.001860
651.000000	100.000881
650.000000	99.982334
649.000000	99.646404
648.000000	101.340298
647.000000	99.855844
646.000000	99.643798
645.000000	100.017746
644.000000	99.960728
643.000000	100.137569
642.000000	100.540660
641.000000	101.356237
640.000000	99.909245
639.000000	98.520977
638.000000	99.647302
637.000000	100.031038
636.000000	99.341634
635.000000	99.084919
634.000000	99.120634
633.000000	100.085240
632.000000	99.795921
631.000000	100.465152
630.000000	100.764851
629.000000	100.293409
628.000000	99.708679
627.000000	98.921263
626.000000	100.882898
625.000000	99.434486
624.000000	100.032238
623.000000	98.819699
622.000000	99.721973
621.000000	99.647762
620.000000	100.298793
619.000000	99.756087
618.000000	99.982061
617.000000	99.193915
616.000000	100.421486
615.000000	100.535006
614.000000	100.469095
613.000000	101.029408
612.000000	100.683368
611.000000	98.950132
610.000000	101.211299
609.000000	100.330685
608.000000	100.213403
607.000000	100.207489
606.000000	98.718700
605.000000	101.163898
604.000000	99.807971
603.000000	99.723366
602.000000	100.222144
601.000000	101.175769
600.000000	100.484482
599.000000	99.759580
598.000000	101.319975
597.000000	100.979620
596.000000	99.679079
595.000000	100.387961
594.000000	100.476946
593.000000	101.897123
592.000000	99.796148
591.000000	100.449663
590.000000	101.353572
589.000000	100.213613
588.000000	98.771735
587.000000	100.413540
586.000000	101.930426
585.000000	98.427872
584.000000	100.643941
583.000000	101.991371
582.000000	99.507902
581.000000	99.371085
580.000000	98.617539
579.000000	98.971656
578.000000	100.168822
577.000000	98.847564
576.000000	99.968310
575.000000	100.809428
574.000000	101.089941
573.000000	103.246162
572.000000	101.300434
571.000000	100.638519
570.000000	98.934857
569.000000	99.795371
568.000000	101.486411
567.000000	100.257058
566.000000	99.177721
565.000000	100.800418
564.000000	100.814110
563.000000	99.765220
562.000000	100.693497
561.000000	99.725262
560.000000	99.007763
559.000000	100.218168
558.000000	100.568355
557.000000	99.864705
556.000000	99.533459
555.000000	100.800579
554.000000	100.346525
553.000000	97.884392
552.000000	100.098155
551.000000	100.347153
550.000000	100.287247
549.000000	100.492927
548.000000	99.341035
547.000000	100.911348
546.000000	100.498871
545.000000	98.730881
544.000000	100.971047
543.000000	101.052834
542.000000	100.550016
541.000000	100.591728
540.000000	100.857535
539.000000	100.386915
538.000000	100.226100
537.000000	100.044209
536.000000	100.880769
535.000000	100.533359
534.000000	99.071090
533.000000	100.554357
532.000000	100.368326
531.000000	100.245613
530.000000	99.548211
529.000000	101.045461
528.000000	101.536826
527.000000	99.456165
526.000000	99.215212
525.000000	100.565626
524.000000	99.981439
523.000000	98.524768
522.000000	98.777276
521.000000	99.694371
520.000000	99.504516
519.000000	98.204970
518.000000	99.552751
517.000000	100.853216
516.000000	100.351506
515.000000	99.490836
514.000000	100.276983
513.000000	100.968972
512.000000	99.786633
511.000000	99.947233
510.000000	100.824671
509.000000	100.200752
508.000000	99.534915
507.000000	100.729978
506.000000	100.592989
505.000000	100.172944
504.000000	100.141587
503.000000	99.860112
502.000000	100.631493
501.000000	100.154052
500.000000	99.347460
499.000000	99.971902
498.000000	100.323279
497.000000	99.933537
496.000000	100.125596
495.000000	99.808770
494.000000	99.767031
493.000000	100.521845
492.000000	99.869439
491.000000	99.019852
490.000000	99.637465
489.000000	99.760929
488.000000	99.303514
487.000000	99.942321
486.000000	100.647244
485.000000	100.489493
484.000000	99.352874
483.000000	99.765030
482.000000	99.656152
481.000000	100.101789
480.000000	100.412348
479.000000	100.486489
478.000000	101.491492
477.000000	100.247277
476.000000	99.764296
475.000000	101.444209
474.000000	100.962911
473.000000	100.977192
472.000000	100.800430
471.000000	99.729815
470.000000	99.823809
469.000000	100.199907
468.000000	99.383173
467.000000	99.945076
466.000000	98.986268
465.000000	98.737856
464.000000	99.788005
463.000000	99.381154
462.000000	99.386257
461.000000	99.671911
460.000000	99.884197
459.000000	100.422190
458.000000	100.553851
457.000000	100.576488
456.000000	99.603802
455.000000	99.255136
454.000000	100.074124
453.000000	99.460309
452.000000	99.134440
451.000000	99.260711
450.000000	99.164005
449.000000	98.908627
448.000000	99.248434
447.000000	99.385309
446.000000	100.172986
445.000000	100.130891
444.000000	99.710146
443.000000	100.642716
442.000000	99.744378
441.000000	97.955935
440.000000	100.700905
439.000000	100.181328
438.000000	99.821517
437.000000	99.540683
436.000000	99.527803
435.000000	99.784840
434.000000	99.328670
433.000000	99.406939
432.000000	100.954555
431.000000	100.006563
430.000000	99.501071
429.000000	99.833015
428.000000	101.300036
427.000000	101.575466
426.000000	100.089211
425.000000	100.642239
424.000000	100.822992
423.000000	100.222907
422.000000	100.547961
421.000000	99.798997
420.000000	100.487875
419.000000	100.277261
418.000000	98.377751
417.000000	98.645698
416.000000	100.922434
415.000000	99.574668
414.000000	99.665645
413.000000	100.772855
412.000000	100.366894
411.000000	100.224363
410.000000	99.505895
409.000000	99.253147
408.000000	99.509899
407.000000	99.637563
406.000000	100.568751
405.000000	99.831901
404.000000	99.217184
403.000000	99.442173
402.000000	101.048256
401.000000	101.775870
400.000000	101.698253
399.000000	98.979438
398.000000	99.102283
397.000000	100.331305
396.000000	98.617199
395.000000	100.004813
394.000000	100.227927
393.000000	100.545619
392.000000	99.798237
391.000000	100.163991
390.000000	100.114109
389.000000	100.139723
388.000000	98.810490
387.000000	99.460831
386.000000	100.165597
385.000000	98.843334
384.000000	98.843191
383.000000	98.388187
382.000000	99.018179
381.000000	100.374338
380.000000	98.700514
379.000000	100.300216
378.000000	94.582040
377.000000	101.188544
376.000000	100.492496
375.000000	99.406757
374.000000	97.319276
373.000000	99.012284
372.000000	101.356015
371.000000	101.645394
370.000000	100.466979
369.000000	100.300678
368.000000	101.468060
367.000000	99.328338
366.000000	101.643985
365.000000	100.072391
364.000000	100.341819
363.000000	101.537938
362.000000	99.418942
361.000000	102.004692
360.000000	100.352000
359.000000	99.996382
358.000000	99.582385
357.000000	100.707913
356.000000	101.124337
355.000000	99.718717
354.000000	99.542895
353.000000	101.064885
352.000000	101.440434
351.000000	99.532493
350.000000	99.903188
349.000000	100.956332
348.000000	100.080355
347.000000	100.233703
346.000000	100.284951
345.000000	101.592892
344.000000	99.765739
343.000000	98.689152
342.000000	101.872079
341.000000	100.959481
340.000000	98.558505
339.000000	99.825290
338.000000	101.174007
337.000000	101.039289
336.000000	99.385714
335.000000	98.379373
334.000000	100.190919
333.000000	100.908505
332.000000	99.668164
331.000000	99.574310
330.000000	101.754296
329.000000	99.917645
328.000000	100.290997
327.000000	101.216458
326.000000	101.673182
325.000000	101.663198
324.000000	100.253800
323.000000	101.427437
322.000000	101.214560
321.000000	101.258053
320.000000	101.953342
319.000000	100.501564
318.000000	100.689359
317.000000	100.123285
316.000000	100.247065
315.000000	98.141836
314.000000	99.653418
313.000000	100.260760
312.000000	101.129838
311.000000	98.835088
310.000000	98.791617
309.000000	99.087783
308.000000	100.086950
307.000000	100.733511
306.000000	100.622695
305.000000	100.974025
304.000000	100.695554
303.000000	98.818058
302.000000	99.483750
301.000000	99.235141
300.000000	100.326496
299.000000	99.310064
298.000000	99.335782
297.000000	100.253211
296.000000	99.409472
295.000000	98.684587
294.000000	99.777274
293.000000	99.634795
292.000000	99.656700
291.000000	99.084120
290.000000	99.824149
289.000000	99.976559
288.000000	99.183933
287.000000	99.703378
286.000000	101.273019
285.000000	100.071778
284.000000	100.605351
283.000000	100.604037
282.000000	99.577271
281.000000	100.481382
280.000000	99.683726
279.000000	98.953131
278.000000	100.352138
277.000000	100.927838
276.000000	99.759068
275.000000	99.126535
274.000000	99.399336
273.000000	99.624169
272.000000	99.255687
271.000000	99.431778
270.000000	100.185361
269.000000	99.696679
268.000000	99.238772
267.000000	99.579584
266.000000	100.535491
265.000000	100.563854
264.000000	99.669673
263.000000	99.249724
262.000000	99.925779
261.000000	99.324212
260.000000	99.034145
259.000000	100.816822
258.000000	100.667842
257.000000	99.600960
256.000000	99.462743
255.000000	99.551553
254.000000	99.341336
253.000000	99.215942
252.000000	99.585576
251.000000	100.103502
250.000000	99.818913
