PE UV       SUBTECH     SPECTRUM    ASCII       PEDS        4.00        
   -1
Sample7.Sample.ASC
22/07/14
10:49:35.00
22/07/14
10:49:35.00
Michael Matus
blank 100 %
250.000000
1
Lambda 1050+
1060L2011032
PerkinElmer UV WinLab 7.1.0.68 / 2.02.11 Lambda 900 UV/VIS/NIR, May 23 2018 11:23:04

0
0
3350/servo 1800.8/servo 860.8/2
0
0
UV/VIS
1
1
1
CommonBeamDepol,RBeamAtt,SBeamAtt,uv/vis/nir detector, TDS WB InGaAs Detector
0
0
0
0
Program
Program
3350/servo 1800.8/servo 860.8/2
3350/0.2 1800.8/0.2 860.8/0.2
3350/0.2 1800.8/0.2 860.8/0.2
0
3350/1.00 1800.8/1.00
 
 
 
0
 
860.8
319.2
1800.8 860.8
Front
100
on
S:100 R:100
 
0
0
0
 
0
 
 
 
0
 
 
0
0
0
0
0
 
 
 
 
0
0


0
0
#HDR
-1
-1
#GR
nm
%T
1.0
0.0
900.000000
-1.000000
651
8
100.084190
99.963942
#DATA
900.000000	100.004251
899.000000	100.001779
898.000000	100.000494
897.000000	100.002373
896.000000	100.002570
895.000000	100.005239
894.000000	100.001285
893.000000	100.010280
892.000000	100.001285
891.000000	100.003064
890.000000	100.000890
889.000000	100.003064
888.000000	99.999012
887.000000	100.000988
886.000000	99.999110
885.000000	99.992587
884.000000	99.998023
883.000000	100.003262
882.000000	100.003163
881.000000	99.998913
880.000000	100.000395
879.000000	100.009786
878.000000	100.006030
877.000000	100.006425
876.000000	100.006326
875.000000	100.001582
874.000000	99.999605
873.000000	99.994959
872.000000	100.000791
871.000000	100.003756
870.000000	99.998419
869.000000	99.996145
868.000000	99.997628
867.000000	100.001581
866.000000	99.996344
865.000000	100.004052
864.000000	100.003459
863.000000	100.004842
862.000000	100.004546
861.000000	99.997431
860.000000	100.049042
859.000000	100.075581
858.000000	100.076430
857.000000	100.061753
856.000000	100.013449
855.000000	100.032702
854.000000	100.016413
853.000000	100.057373
852.000000	100.060151
851.000000	99.977715
850.000000	100.048756
849.000000	100.065271
848.000000	100.000595
847.000000	100.068935
846.000000	100.042866
845.000000	100.004236
844.000000	100.023596
843.000000	100.007649
842.000000	100.084190
841.000000	100.019919
840.000000	100.003020
839.000000	100.025662
838.000000	100.037162
837.000000	100.030884
836.000000	100.008406
835.000000	100.039256
834.000000	100.044185
833.000000	100.007781
832.000000	100.035497
831.000000	100.013790
830.000000	100.030317
829.000000	100.023205
828.000000	100.027278
827.000000	100.040486
826.000000	100.034159
825.000000	100.019483
824.000000	100.014620
823.000000	99.990327
822.000000	100.000000
821.000000	100.020265
820.000000	99.970956
819.000000	100.020422
818.000000	100.028352
817.000000	100.022762
816.000000	100.009724
815.000000	99.983488
814.000000	100.016696
813.000000	100.031206
812.000000	100.031766
811.000000	100.033259
810.000000	100.045560
809.000000	100.046970
808.000000	100.001223
807.000000	100.002822
806.000000	100.003103
805.000000	100.022849
804.000000	99.992856
803.000000	100.014103
802.000000	100.006957
801.000000	99.998308
800.000000	100.015508
799.000000	100.031954
798.000000	100.023869
797.000000	100.027811
796.000000	100.020199
795.000000	100.034106
794.000000	100.036172
793.000000	100.018037
792.000000	100.037955
791.000000	100.030061
790.000000	100.016534
789.000000	100.000282
788.000000	99.995210
787.000000	99.977365
786.000000	99.975581
785.000000	100.004320
784.000000	100.013526
783.000000	100.000939
782.000000	99.990420
781.000000	100.010614
780.000000	100.008735
779.000000	100.007891
778.000000	100.008172
777.000000	100.005166
776.000000	99.995397
775.000000	100.018981
774.000000	100.017571
773.000000	100.009397
772.000000	100.015787
771.000000	100.020393
770.000000	100.037312
769.000000	100.036750
768.000000	100.017669
767.000000	100.019739
766.000000	100.020209
765.000000	100.012219
764.000000	99.993044
763.000000	99.986181
762.000000	100.008744
761.000000	100.018240
760.000000	100.019088
759.000000	100.007899
758.000000	99.997649
757.000000	99.999718
756.000000	100.002163
755.000000	100.002258
754.000000	100.017873
753.000000	100.030861
752.000000	100.023337
751.000000	100.020609
750.000000	100.007152
749.000000	100.011387
748.000000	100.034921
747.000000	100.044339
746.000000	100.035491
745.000000	100.024194
744.000000	100.025987
743.000000	100.019585
742.000000	100.010546
741.000000	100.007157
740.000000	100.003108
739.000000	100.000000
738.000000	99.992558
737.000000	100.000377
736.000000	100.015547
735.000000	100.003581
734.000000	99.993027
733.000000	100.012441
732.000000	100.021494
731.000000	100.012067
730.000000	100.009051
729.000000	100.009335
728.000000	100.005092
727.000000	100.006318
726.000000	100.000943
725.000000	100.017358
724.000000	100.027837
723.000000	100.019629
722.000000	100.014063
721.000000	100.014725
720.000000	100.008212
719.000000	99.988107
718.000000	99.996223
717.000000	100.013126
716.000000	100.000756
715.000000	100.003401
714.000000	100.006047
713.000000	100.015782
712.000000	100.017105
711.000000	100.000284
710.000000	100.005577
709.000000	100.005578
708.000000	99.996501
707.000000	100.008795
706.000000	100.013715
705.000000	100.026583
704.000000	100.023463
703.000000	100.016748
702.000000	99.993376
701.000000	100.001041
700.000000	100.001136
699.000000	100.009563
698.000000	100.016098
697.000000	100.001705
696.000000	100.009283
695.000000	100.000474
694.000000	100.008433
693.000000	100.016680
692.000000	100.018958
691.000000	100.007015
690.000000	99.995730
689.000000	99.995917
688.000000	99.997436
687.000000	99.992687
686.000000	99.999905
685.000000	100.005606
684.000000	100.001235
683.000000	100.001331
682.000000	99.998954
681.000000	99.996673
680.000000	100.017402
679.000000	100.020734
678.000000	100.030919
677.000000	100.015983
676.000000	100.001998
675.000000	99.990865
674.000000	100.006282
673.000000	100.020852
672.000000	100.014760
671.000000	100.016572
670.000000	100.021909
669.000000	100.003715
668.000000	100.010863
667.000000	99.997427
666.000000	99.987229
665.000000	99.987609
664.000000	100.005816
663.000000	99.999523
662.000000	99.999046
661.000000	100.006487
660.000000	100.009445
659.000000	100.002672
658.000000	100.015176
657.000000	100.017849
656.000000	100.018044
655.000000	100.017285
654.000000	100.016811
653.000000	100.006209
652.000000	100.012133
651.000000	100.016151
650.000000	100.014051
649.000000	100.012236
648.000000	99.990536
647.000000	99.987094
646.000000	100.000956
645.000000	99.999044
644.000000	100.005357
643.000000	100.020477
642.000000	99.994832
641.000000	99.998564
640.000000	100.008137
639.000000	99.987267
638.000000	100.010151
637.000000	100.006226
636.000000	99.986015
635.000000	99.996838
634.000000	100.010732
633.000000	99.998275
632.000000	99.996741
631.000000	100.004698
630.000000	100.010165
629.000000	99.995972
628.000000	99.979093
627.000000	100.000959
626.000000	99.989254
625.000000	99.989925
624.000000	100.010654
623.000000	100.021890
622.000000	100.006721
621.000000	100.007203
620.000000	100.001441
619.000000	100.004707
618.000000	100.028637
617.000000	100.022198
616.000000	100.022682
615.000000	100.018455
614.000000	100.023553
613.000000	99.996923
612.000000	100.010386
611.000000	100.000866
610.000000	100.005290
609.000000	99.993170
608.000000	100.012991
607.000000	100.000674
606.000000	100.000289
605.000000	100.010495
604.000000	99.999711
603.000000	99.997785
602.000000	100.000867
601.000000	100.010694
600.000000	100.000482
599.000000	100.005879
598.000000	100.005976
597.000000	100.004531
596.000000	100.002893
595.000000	100.005016
594.000000	99.996623
593.000000	99.998746
592.000000	100.011969
591.000000	100.015834
590.000000	100.006374
589.000000	100.024444
588.000000	100.015363
587.000000	100.002996
586.000000	100.013533
585.000000	100.007831
584.000000	100.004158
583.000000	100.012576
582.000000	100.009580
581.000000	100.007936
580.000000	100.012003
579.000000	99.997289
578.000000	99.997966
577.000000	100.003585
576.000000	100.011822
575.000000	100.014442
574.000000	100.019100
573.000000	100.016003
572.000000	100.019210
571.000000	100.003299
570.000000	99.992429
569.000000	99.969033
568.000000	99.984075
567.000000	99.995823
566.000000	99.997474
565.000000	99.986491
564.000000	100.002041
563.000000	100.007291
562.000000	100.017779
561.000000	100.024494
560.000000	100.019250
559.000000	100.009238
558.000000	100.008170
557.000000	100.008368
556.000000	100.013432
555.000000	100.011390
554.000000	100.003019
553.000000	100.005942
552.000000	100.015884
551.000000	100.003216
550.000000	100.015697
549.000000	100.001950
548.000000	100.000488
547.000000	100.016784
546.000000	100.023136
545.000000	100.003320
544.000000	100.007521
543.000000	100.018956
542.000000	100.014562
541.000000	100.021314
540.000000	100.018776
539.000000	100.015749
538.000000	100.026225
537.000000	100.016346
536.000000	100.008616
535.000000	100.012146
534.000000	100.012738
533.000000	100.013134
532.000000	100.010393
531.000000	100.008141
530.000000	100.002453
529.000000	99.998626
528.000000	99.993619
527.000000	100.000786
526.000000	100.011003
525.000000	100.019756
524.000000	100.023695
523.000000	100.017310
522.000000	100.015741
521.000000	100.001083
520.000000	99.986515
519.000000	99.996061
518.000000	99.998326
517.000000	100.003843
516.000000	100.001774
515.000000	99.998028
514.000000	100.001874
513.000000	99.996942
512.000000	100.004046
511.000000	100.010266
510.000000	100.005332
509.000000	100.008988
508.000000	100.004940
507.000000	100.004844
506.000000	100.007912
505.000000	100.000594
504.000000	100.002871
503.000000	100.003961
502.000000	99.997127
501.000000	99.993161
500.000000	99.995042
499.000000	99.994643
498.000000	99.994640
497.000000	100.004668
496.000000	100.020870
495.000000	100.013223
494.000000	100.003382
493.000000	100.008360
492.000000	100.011351
491.000000	100.011058
490.000000	100.006677
489.000000	100.010968
488.000000	100.007482
487.000000	100.007785
486.000000	100.021868
485.000000	100.019781
484.000000	100.006897
483.000000	100.009703
482.000000	100.005105
481.000000	99.993691
480.000000	99.995793
479.000000	100.006613
478.000000	100.007716
477.000000	100.015438
476.000000	100.022263
475.000000	100.014947
474.000000	100.011439
473.000000	100.005319
472.000000	100.008332
471.000000	100.013657
470.000000	100.013359
469.000000	100.000904
468.000000	99.988846
467.000000	99.998090
466.000000	100.013773
465.000000	100.013977
464.000000	100.009354
463.000000	100.003420
462.000000	100.002516
461.000000	99.996276
460.000000	99.994965
459.000000	99.997683
458.000000	99.995264
457.000000	99.998185
456.000000	99.991427
455.000000	100.006862
454.000000	100.000707
453.000000	100.002828
452.000000	99.992724
451.000000	99.998686
450.000000	100.012038
449.000000	100.021458
448.000000	100.018328
447.000000	99.999392
446.000000	99.993210
445.000000	99.999899
444.000000	99.994621
443.000000	100.009038
442.000000	100.014832
441.000000	100.005488
440.000000	100.016165
439.000000	100.009357
438.000000	99.999797
437.000000	99.999898
436.000000	100.017106
435.000000	100.003056
434.000000	99.993580
433.000000	99.990521
432.000000	99.998776
431.000000	99.997450
430.000000	99.986223
429.000000	99.988567
428.000000	99.983356
427.000000	99.995709
426.000000	100.003884
425.000000	100.010123
424.000000	100.003069
423.000000	100.006446
422.000000	99.996725
421.000000	100.000410
420.000000	99.983817
419.000000	100.005123
418.000000	99.998360
417.000000	100.002359
416.000000	99.999692
415.000000	100.021962
414.000000	100.022174
413.000000	100.010167
412.000000	100.009965
411.000000	100.000719
410.000000	100.009047
409.000000	100.001954
408.000000	100.016767
407.000000	100.010289
406.000000	99.995882
405.000000	99.980953
404.000000	99.977445
403.000000	99.994848
402.000000	99.989385
401.000000	100.014335
400.000000	99.976794
399.000000	99.990406
398.000000	99.996285
397.000000	100.014455
396.000000	100.009088
395.000000	100.009505
394.000000	100.017565
393.000000	100.007028
392.000000	100.026988
391.000000	100.015925
390.000000	99.984384
389.000000	100.026385
388.000000	99.984896
387.000000	100.003725
386.000000	100.001449
385.000000	99.989960
384.000000	100.020602
383.000000	100.027749
382.000000	100.000932
381.000000	99.999275
380.000000	100.014185
379.000000	99.986533
378.000000	100.023247
377.000000	99.995660
376.000000	99.997209
375.000000	99.977665
374.000000	100.026587
373.000000	100.036214
372.000000	100.063866
371.000000	99.991409
370.000000	100.030546
369.000000	100.026922
368.000000	99.967283
367.000000	99.989125
366.000000	99.981458
365.000000	99.992852
364.000000	100.001554
363.000000	100.008498
362.000000	100.004973
361.000000	99.963942
360.000000	99.983110
359.000000	99.997927
358.000000	100.004354
357.000000	99.990360
356.000000	99.987250
355.000000	99.996994
354.000000	100.012959
353.000000	100.010266
352.000000	99.985381
351.000000	100.032255
350.000000	100.041494
349.000000	99.996785
348.000000	99.990561
347.000000	99.978637
346.000000	100.031018
345.000000	100.005393
344.000000	99.999896
343.000000	99.992846
342.000000	100.012339
341.000000	100.027064
340.000000	100.016692
339.000000	100.001244
338.000000	99.997202
337.000000	99.993160
336.000000	99.990573
335.000000	99.998964
334.000000	100.005489
333.000000	100.011290
332.000000	99.990991
331.000000	99.995029
330.000000	99.968734
329.000000	100.003624
328.000000	100.033547
327.000000	99.990789
326.000000	100.000517
325.000000	100.010555
324.000000	99.971961
323.000000	99.992345
322.000000	99.981070
321.000000	99.991102
320.000000	100.027522
319.000000	100.032727
318.000000	100.013206
317.000000	100.020681
316.000000	100.025044
315.000000	100.007895
314.000000	100.002077
313.000000	100.023579
312.000000	100.014018
311.000000	99.984843
310.000000	100.001246
309.000000	100.009342
308.000000	99.996991
307.000000	100.027293
306.000000	100.005395
305.000000	100.009234
304.000000	100.000415
303.000000	100.008921
302.000000	100.013795
301.000000	99.999274
300.000000	100.010371
299.000000	100.017525
298.000000	100.002903
297.000000	100.001451
296.000000	100.003940
295.000000	100.025198
294.000000	100.019701
293.000000	100.030483
292.000000	100.038261
291.000000	100.026128
290.000000	100.012854
289.000000	100.023117
288.000000	100.010677
287.000000	100.007463
286.000000	100.000518
285.000000	99.987978
284.000000	99.992434
283.000000	100.010779
282.000000	100.019486
281.000000	100.010779
280.000000	100.003109
279.000000	100.002798
278.000000	99.996995
277.000000	99.979795
276.000000	99.975754
275.000000	99.978860
274.000000	99.982383
273.000000	100.011090
272.000000	100.025604
271.000000	100.011195
270.000000	99.995439
269.000000	99.993676
268.000000	100.003940
267.000000	99.999585
266.000000	99.983202
265.000000	99.999896
264.000000	100.006016
263.000000	100.000519
262.000000	99.995229
261.000000	99.984234
260.000000	99.992740
259.000000	100.008711
258.000000	100.004562
257.000000	99.992225
256.000000	99.983004
255.000000	99.987464
254.000000	99.988710
253.000000	99.995133
252.000000	100.017497
251.000000	100.017906
250.000000	99.996482
